File: UVVis/BareSolarLamp2.csv
,wavelength,intensity,acqTime,time,n
0,178.997,3029.83,11,1.61056e+09,1
3,179.652,3079.82,11,1.61056e+09,1
6,180.306,3101.24,11,1.61056e+09,1
9,180.961,3128.03,11,1.61056e+09,1
12,181.616,3028.04,11,1.61056e+09,1
15,182.27,3174.45,11,1.61056e+09,1
18,182.924,3090.53,11,1.61056e+09,1
21,183.578,3117.31,11,1.61056e+09,1
24,184.233,3192.3,11,1.61056e+09,1
27,184.887,3138.74,11,1.61056e+09,1
30,185.54,3156.59,11,1.61056e+09,1
33,186.194,3156.59,11,1.61056e+09,1
36,186.848,3197.66,11,1.61056e+09,1
39,187.502,3206.58,11,1.61056e+09,1
42,188.155,3076.25,11,1.61056e+09,1
45,188.808,3083.39,11,1.61056e+09,1
48,189.462,3108.39,11,1.61056e+09,1
51,190.115,3201.23,11,1.61056e+09,1
54,190.768,3047.68,11,1.61056e+09,1
57,191.421,3058.4,11,1.61056e+09,1
60,192.074,3142.31,11,1.61056e+09,1
63,192.727,3181.59,11,1.61056e+09,1
66,193.38,3120.88,11,1.61056e+09,1
69,194.032,3135.17,11,1.61056e+09,1
72,194.685,3135.17,11,1.61056e+09,1
75,195.337,3129.81,11,1.61056e+09,1
78,195.99,3085.18,11,1.61056e+09,1
81,196.642,3147.67,11,1.61056e+09,1
84,197.294,3094.1,11,1.61056e+09,1
87,197.946,3119.1,11,1.61056e+09,1
90,198.598,3104.82,11,1.61056e+09,1
93,199.25,3154.81,11,1.61056e+09,1
96,199.901,3149.45,11,1.61056e+09,1
99,200.553,3153.02,11,1.61056e+09,1
102,201.205,3094.1,11,1.61056e+09,1
105,201.856,3140.52,11,1.61056e+09,1
108,202.507,3135.17,11,1.61056e+09,1
111,203.159,3176.23,11,1.61056e+09,1
114,203.81,3086.96,11,1.61056e+09,1
117,204.461,3135.17,11,1.61056e+09,1
120,205.112,3078.03,11,1.61056e+09,1
123,205.763,3131.6,11,1.61056e+09,1
126,206.413,3083.39,11,1.61056e+09,1
129,207.064,3192.3,11,1.61056e+09,1
132,207.714,3111.96,11,1.61056e+09,1
135,208.365,3088.75,11,1.61056e+09,1
138,209.015,3145.88,11,1.61056e+09,1
141,209.666,3115.53,11,1.61056e+09,1
144,210.316,3158.38,11,1.61056e+09,1
147,210.966,3153.02,11,1.61056e+09,1
150,211.616,3111.96,11,1.61056e+09,1
153,212.265,3144.09,11,1.61056e+09,1
156,212.915,3067.32,11,1.61056e+09,1
159,213.565,3095.89,11,1.61056e+09,1
162,214.214,3076.25,11,1.61056e+09,1
165,214.864,3081.61,11,1.61056e+09,1
168,215.513,3142.31,11,1.61056e+09,1
171,216.162,3170.88,11,1.61056e+09,1
174,216.812,3206.58,11,1.61056e+09,1
177,217.461,3122.67,11,1.61056e+09,1
180,218.11,3051.25,11,1.61056e+09,1
183,218.758,3181.59,11,1.61056e+09,1
186,219.407,3124.46,11,1.61056e+09,1
189,220.056,3183.37,11,1.61056e+09,1
192,220.704,3165.52,11,1.61056e+09,1
195,221.353,3179.8,11,1.61056e+09,1
198,222.001,3160.16,11,1.61056e+09,1
201,222.649,3195.87,11,1.61056e+09,1
204,223.297,3126.24,11,1.61056e+09,1
207,223.945,3124.46,11,1.61056e+09,1
210,224.593,3185.16,11,1.61056e+09,1
213,225.241,3135.17,11,1.61056e+09,1
216,225.889,3072.68,11,1.61056e+09,1
219,226.536,3136.95,11,1.61056e+09,1
222,227.184,3195.87,11,1.61056e+09,1
225,227.831,3117.31,11,1.61056e+09,1
228,228.479,3160.16,11,1.61056e+09,1
231,229.126,3179.8,11,1.61056e+09,1
234,229.773,3111.96,11,1.61056e+09,1
237,230.42,3136.95,11,1.61056e+09,1
240,231.067,3103.03,11,1.61056e+09,1
243,231.714,3208.37,11,1.61056e+09,1
246,232.36,3106.6,11,1.61056e+09,1
249,233.007,3188.73,11,1.61056e+09,1
252,233.654,3135.17,11,1.61056e+09,1
255,234.3,3117.31,11,1.61056e+09,1
258,234.946,3110.17,11,1.61056e+09,1
261,235.592,3186.94,11,1.61056e+09,1
264,236.239,3158.38,11,1.61056e+09,1
267,236.885,3156.59,11,1.61056e+09,1
270,237.53,3217.3,11,1.61056e+09,1
273,238.176,3208.37,11,1.61056e+09,1
276,238.822,3090.53,11,1.61056e+09,1
279,239.467,3186.94,11,1.61056e+09,1
282,240.113,3126.24,11,1.61056e+09,1
285,240.758,3135.17,11,1.61056e+09,1
288,241.404,3145.88,11,1.61056e+09,1
291,242.049,3178.02,11,1.61056e+09,1
294,242.694,3147.67,11,1.61056e+09,1
297,243.339,3140.52,11,1.61056e+09,1
300,243.984,3138.74,11,1.61056e+09,1
303,244.628,3208.37,11,1.61056e+09,1
306,245.273,3036.97,11,1.61056e+09,1
309,245.918,3158.38,11,1.61056e+09,1
312,246.562,3067.32,11,1.61056e+09,1
315,247.206,3215.51,11,1.61056e+09,1
318,247.851,3133.38,11,1.61056e+09,1
321,248.495,3199.44,11,1.61056e+09,1
324,249.139,3153.02,11,1.61056e+09,1
327,249.783,3115.53,11,1.61056e+09,1
330,250.426,3142.31,11,1.61056e+09,1
333,251.07,3131.6,11,1.61056e+09,1
336,251.714,3153.02,11,1.61056e+09,1
339,252.357,3103.03,11,1.61056e+09,1
342,253.001,3178.02,11,1.61056e+09,1
345,253.644,3158.38,11,1.61056e+09,1
348,254.287,3106.6,11,1.61056e+09,1
351,254.93,3179.8,11,1.61056e+09,1
354,255.573,3156.59,11,1.61056e+09,1
357,256.216,3222.65,11,1.61056e+09,1
360,256.859,3215.51,11,1.61056e+09,1
363,257.502,3210.15,11,1.61056e+09,1
366,258.144,3224.44,11,1.61056e+09,1
369,258.787,3333.35,11,1.61056e+09,1
372,259.429,3308.35,11,1.61056e+09,1
375,260.071,3419.05,11,1.61056e+09,1
378,260.713,3383.34,11,1.61056e+09,1
381,261.355,3361.91,11,1.61056e+09,1
384,261.997,3472.61,11,1.61056e+09,1
387,262.639,3549.38,11,1.61056e+09,1
390,263.281,3592.23,11,1.61056e+09,1
393,263.923,3627.94,11,1.61056e+09,1
396,264.564,3718.99,11,1.61056e+09,1
399,265.205,3758.27,11,1.61056e+09,1
402,265.847,3658.29,11,1.61056e+09,1
405,266.488,3860.04,11,1.61056e+09,1
408,267.129,3888.61,11,1.61056e+09,1
411,267.77,3958.24,11,1.61056e+09,1
414,268.411,3990.38,11,1.61056e+09,1
417,269.052,4035.01,11,1.61056e+09,1
420,269.692,4134.99,11,1.61056e+09,1
423,270.333,4242.12,11,1.61056e+09,1
426,270.973,4208.19,11,1.61056e+09,1
429,271.614,4195.7,11,1.61056e+09,1
432,272.254,4249.26,11,1.61056e+09,1
435,272.894,4445.65,11,1.61056e+09,1
438,273.534,4331.39,11,1.61056e+09,1
441,274.174,4533.14,11,1.61056e+09,1
444,274.814,4488.5,11,1.61056e+09,1
447,275.454,4609.91,11,1.61056e+09,1
450,276.093,4588.49,11,1.61056e+09,1
453,276.733,4686.68,11,1.61056e+09,1
456,277.372,4659.9,11,1.61056e+09,1
459,278.012,4715.25,11,1.61056e+09,1
462,278.651,4804.52,11,1.61056e+09,1
465,279.29,4995.56,11,1.61056e+09,1
468,279.929,4825.94,11,1.61056e+09,1
471,280.568,4965.21,11,1.61056e+09,1
474,281.207,5063.4,11,1.61056e+09,1
477,281.845,5056.26,11,1.61056e+09,1
480,282.484,5095.54,11,1.61056e+09,1
483,283.122,5299.08,11,1.61056e+09,1
486,283.761,5309.79,11,1.61056e+09,1
489,284.399,5290.15,11,1.61056e+09,1
492,285.037,5465.12,11,1.61056e+09,1
495,285.675,5525.82,11,1.61056e+09,1
498,286.313,5504.4,11,1.61056e+09,1
501,286.951,5572.24,11,1.61056e+09,1
504,287.588,5759.71,11,1.61056e+09,1
507,288.226,5825.77,11,1.61056e+09,1
510,288.863,5915.04,11,1.61056e+09,1
513,289.501,6043.59,11,1.61056e+09,1
516,290.138,6107.86,11,1.61056e+09,1
519,290.775,6354.25,11,1.61056e+09,1
522,291.412,6332.82,11,1.61056e+09,1
525,292.049,6506.01,11,1.61056e+09,1
528,292.686,6457.8,11,1.61056e+09,1
531,293.323,6709.54,11,1.61056e+09,1
534,293.959,6618.49,11,1.61056e+09,1
537,294.596,6875.59,11,1.61056e+09,1
540,295.232,6941.65,11,1.61056e+09,1
543,295.869,7259.45,11,1.61056e+09,1
546,296.505,7368.36,11,1.61056e+09,1
549,297.141,7330.86,11,1.61056e+09,1
552,297.777,7470.13,11,1.61056e+09,1
555,298.413,7389.78,11,1.61056e+09,1
558,299.048,7541.54,11,1.61056e+09,1
561,299.684,7668.31,11,1.61056e+09,1
564,300.32,7609.39,11,1.61056e+09,1
567,300.955,7855.77,11,1.61056e+09,1
570,301.59,8118.23,11,1.61056e+09,1
573,302.226,7953.97,11,1.61056e+09,1
576,302.861,7950.4,11,1.61056e+09,1
579,303.496,8064.67,11,1.61056e+09,1
582,304.131,8287.84,11,1.61056e+09,1
585,304.765,8230.71,11,1.61056e+09,1
588,305.4,7984.32,11,1.61056e+09,1
591,306.035,8493.16,11,1.61056e+09,1
594,306.669,8364.61,11,1.61056e+09,1
597,307.303,8498.52,11,1.61056e+09,1
600,307.938,8434.24,11,1.61056e+09,1
603,308.572,8439.6,11,1.61056e+09,1
606,309.206,8552.08,11,1.61056e+09,1
609,309.84,8744.9,11,1.61056e+09,1
612,310.474,8816.32,11,1.61056e+09,1
615,311.107,9103.77,11,1.61056e+09,1
618,311.741,9517.98,11,1.61056e+09,1
621,312.374,9709.02,11,1.61056e+09,1
624,313.008,9364.44,11,1.61056e+09,1
627,313.641,9391.22,11,1.61056e+09,1
630,314.274,9423.36,11,1.61056e+09,1
633,314.907,9492.99,11,1.61056e+09,1
636,315.54,9387.65,11,1.61056e+09,1
639,316.173,9437.64,11,1.61056e+09,1
642,316.805,9507.27,11,1.61056e+09,1
645,317.438,9505.49,11,1.61056e+09,1
648,318.071,9528.7,11,1.61056e+09,1
651,318.703,9734.02,11,1.61056e+09,1
654,319.335,9785.79,11,1.61056e+09,1
657,319.967,9907.2,11,1.61056e+09,1
660,320.599,9980.4,11,1.61056e+09,1
663,321.231,9933.98,11,1.61056e+09,1
666,321.863,9876.85,11,1.61056e+09,1
669,322.495,10180.4,11,1.61056e+09,1
672,323.126,9978.62,11,1.61056e+09,1
675,323.758,10232.1,11,1.61056e+09,1
678,324.389,10057.2,11,1.61056e+09,1
681,325.021,10192.9,11,1.61056e+09,1
684,325.652,10169.7,11,1.61056e+09,1
687,326.283,9969.69,11,1.61056e+09,1
690,326.914,10089.3,11,1.61056e+09,1
693,327.545,9883.99,11,1.61056e+09,1
696,328.175,9878.63,11,1.61056e+09,1
699,328.806,10109,11,1.61056e+09,1
702,329.436,10350,11,1.61056e+09,1
705,330.067,10410.7,11,1.61056e+09,1
708,330.697,10962.4,11,1.61056e+09,1
711,331.327,10957,11,1.61056e+09,1
714,331.957,11223,11,1.61056e+09,1
717,332.587,11398,11,1.61056e+09,1
720,333.217,11319.5,11,1.61056e+09,1
723,333.847,11314.1,11,1.61056e+09,1
726,334.476,11930.1,11,1.61056e+09,1
729,335.106,11758.7,11,1.61056e+09,1
732,335.735,11789,11,1.61056e+09,1
735,336.364,11669.4,11,1.61056e+09,1
738,336.993,11603.3,11,1.61056e+09,1
741,337.623,11776.5,11,1.61056e+09,1
744,338.251,11699.7,11,1.61056e+09,1
747,338.88,12001.5,11,1.61056e+09,1
750,339.509,12060.4,11,1.61056e+09,1
753,340.138,12140.7,11,1.61056e+09,1
756,340.766,12544.2,11,1.61056e+09,1
759,341.394,12288.9,11,1.61056e+09,1
762,342.023,12330,11,1.61056e+09,1
765,342.651,12405,11,1.61056e+09,1
768,343.279,12372.8,11,1.61056e+09,1
771,343.907,12606.7,11,1.61056e+09,1
774,344.535,12569.2,11,1.61056e+09,1
777,345.162,12481.8,11,1.61056e+09,1
780,345.79,12669.2,11,1.61056e+09,1
783,346.417,12646,11,1.61056e+09,1
786,347.045,12803.1,11,1.61056e+09,1
789,347.672,12603.2,11,1.61056e+09,1
792,348.299,12888.8,11,1.61056e+09,1
795,348.926,12735.3,11,1.61056e+09,1
798,349.553,12922.7,11,1.61056e+09,1
801,350.18,13188.8,11,1.61056e+09,1
804,350.806,13065.6,11,1.61056e+09,1
807,351.433,13069.1,11,1.61056e+09,1
810,352.059,13272.7,11,1.61056e+09,1
813,352.686,13290.5,11,1.61056e+09,1
816,353.312,13269.1,11,1.61056e+09,1
819,353.938,13433.4,11,1.61056e+09,1
822,354.564,13381.6,11,1.61056e+09,1
825,355.19,13258.4,11,1.61056e+09,1
828,355.816,13460.2,11,1.61056e+09,1
831,356.441,13631.6,11,1.61056e+09,1
834,357.067,13381.6,11,1.61056e+09,1
837,357.692,13599.4,11,1.61056e+09,1
840,358.318,13588.7,11,1.61056e+09,1
843,358.943,13869,11,1.61056e+09,1
846,359.568,13429.8,11,1.61056e+09,1
849,360.193,13804.7,11,1.61056e+09,1
852,360.818,13931.5,11,1.61056e+09,1
855,361.442,13845.8,11,1.61056e+09,1
858,362.067,13833.3,11,1.61056e+09,1
861,362.692,14044,11,1.61056e+09,1
864,363.316,14317.1,11,1.61056e+09,1
867,363.94,14659.9,11,1.61056e+09,1
870,364.564,14765.3,11,1.61056e+09,1
873,365.189,14659.9,11,1.61056e+09,1
876,365.812,14567.1,11,1.61056e+09,1
879,366.436,14019,11,1.61056e+09,1
882,367.06,14429.6,11,1.61056e+09,1
885,367.684,14236.8,11,1.61056e+09,1
888,368.307,14374.3,11,1.61056e+09,1
891,368.93,14606.4,11,1.61056e+09,1
894,369.554,14451.1,11,1.61056e+09,1
897,370.177,14535,11,1.61056e+09,1
900,370.8,14649.2,11,1.61056e+09,1
903,371.423,14786.7,11,1.61056e+09,1
906,372.046,14422.5,11,1.61056e+09,1
909,372.668,14585,11,1.61056e+09,1
912,373.291,14633.2,11,1.61056e+09,1
915,373.913,14542.1,11,1.61056e+09,1
918,374.536,14692.1,11,1.61056e+09,1
921,375.158,14715.3,11,1.61056e+09,1
924,375.78,14518.9,11,1.61056e+09,1
927,376.402,14593.9,11,1.61056e+09,1
930,377.024,14736.7,11,1.61056e+09,1
933,377.645,14808.1,11,1.61056e+09,1
936,378.267,14711.7,11,1.61056e+09,1
939,378.889,14677.8,11,1.61056e+09,1
942,379.51,14727.8,11,1.61056e+09,1
945,380.131,14558.2,11,1.61056e+09,1
948,380.752,15015.2,11,1.61056e+09,1
951,381.374,14988.5,11,1.61056e+09,1
954,381.994,15045.6,11,1.61056e+09,1
957,382.615,14729.6,11,1.61056e+09,1
960,383.236,14436.8,11,1.61056e+09,1
963,383.857,14906.3,11,1.61056e+09,1
966,384.477,14931.3,11,1.61056e+09,1
969,385.097,14876,11,1.61056e+09,1
972,385.718,15083.1,11,1.61056e+09,1
975,386.338,14954.5,11,1.61056e+09,1
978,386.958,15092,11,1.61056e+09,1
981,387.578,15393.7,11,1.61056e+09,1
984,388.197,15170.6,11,1.61056e+09,1
987,388.817,15136.6,11,1.61056e+09,1
990,389.437,15493.7,11,1.61056e+09,1
993,390.056,15520.5,11,1.61056e+09,1
996,390.675,15586.6,11,1.61056e+09,1
999,391.295,15750.8,11,1.61056e+09,1
1002,391.914,15665.1,11,1.61056e+09,1
1005,392.533,16034.7,11,1.61056e+09,1
1008,393.151,15800.8,11,1.61056e+09,1
1011,393.77,15857.9,11,1.61056e+09,1
1014,394.389,16182.9,11,1.61056e+09,1
1017,395.007,16036.5,11,1.61056e+09,1
1020,395.626,16240,11,1.61056e+09,1
1023,396.244,16418.6,11,1.61056e+09,1
1026,396.862,15968.6,11,1.61056e+09,1
1029,397.48,16400.7,11,1.61056e+09,1
1032,398.098,16636.4,11,1.61056e+09,1
1035,398.716,16018.6,11,1.61056e+09,1
1038,399.333,15943.6,11,1.61056e+09,1
1041,399.951,15759.8,11,1.61056e+09,1
1044,400.568,15720.5,11,1.61056e+09,1
1047,401.186,15759.8,11,1.61056e+09,1
1050,401.803,15850.8,11,1.61056e+09,1
1053,402.42,15868.7,11,1.61056e+09,1
1056,403.037,15838.3,11,1.61056e+09,1
1059,403.654,16040.1,11,1.61056e+09,1
1062,404.27,15988.3,11,1.61056e+09,1
1065,404.887,16038.3,11,1.61056e+09,1
1068,405.504,16316.8,11,1.61056e+09,1
1071,406.12,16216.8,11,1.61056e+09,1
1074,406.736,16195.4,11,1.61056e+09,1
1077,407.352,16188.2,11,1.61056e+09,1
1080,407.968,16398.9,11,1.61056e+09,1
1083,408.584,16286.4,11,1.61056e+09,1
1086,409.2,16411.4,11,1.61056e+09,1
1089,409.816,16686.4,11,1.61056e+09,1
1092,410.431,16415,11,1.61056e+09,1
1095,411.047,16436.4,11,1.61056e+09,1
1098,411.662,16797.1,11,1.61056e+09,1
1101,412.277,16425.7,11,1.61056e+09,1
1104,412.892,16629.2,11,1.61056e+09,1
1107,413.507,16673.9,11,1.61056e+09,1
1110,414.122,16382.9,11,1.61056e+09,1
1113,414.737,16759.6,11,1.61056e+09,1
1116,415.351,16388.2,11,1.61056e+09,1
1119,415.966,16575.7,11,1.61056e+09,1
1122,416.58,16429.3,11,1.61056e+09,1
1125,417.194,16863.1,11,1.61056e+09,1
1128,417.808,16390,11,1.61056e+09,1
1131,418.422,16752.4,11,1.61056e+09,1
1134,419.036,17316.6,11,1.61056e+09,1
1137,419.65,16797.1,11,1.61056e+09,1
1140,420.263,16518.5,11,1.61056e+09,1
1143,420.877,16675.7,11,1.61056e+09,1
1146,421.49,16579.3,11,1.61056e+09,1
1149,422.104,16688.2,11,1.61056e+09,1
1152,422.717,16704.2,11,1.61056e+09,1
1155,423.33,16527.5,11,1.61056e+09,1
1158,423.943,16772.1,11,1.61056e+09,1
1161,424.555,16043.6,11,1.61056e+09,1
1164,425.168,16272.2,11,1.61056e+09,1
1167,425.781,16232.9,11,1.61056e+09,1
1170,426.393,16340,11,1.61056e+09,1
1173,427.005,16570.3,11,1.61056e+09,1
1176,427.618,16734.6,11,1.61056e+09,1
1179,428.23,16843.5,11,1.61056e+09,1
1182,428.842,16545.3,11,1.61056e+09,1
1185,429.453,16932.8,11,1.61056e+09,1
1188,430.065,16750.7,11,1.61056e+09,1
1191,430.677,16904.2,11,1.61056e+09,1
1194,431.288,16652.5,11,1.61056e+09,1
1197,431.899,16861.3,11,1.61056e+09,1
1200,432.511,16913.1,11,1.61056e+09,1
1203,433.122,16754.2,11,1.61056e+09,1
1206,433.733,16889.9,11,1.61056e+09,1
1209,434.344,17452.3,11,1.61056e+09,1
1212,434.954,18193.3,11,1.61056e+09,1
1215,435.565,17705.8,11,1.61056e+09,1
1218,436.175,18070.1,11,1.61056e+09,1
1221,436.786,18011.1,11,1.61056e+09,1
1224,437.396,17882.6,11,1.61056e+09,1
1227,438.006,17748.7,11,1.61056e+09,1
1230,438.616,17716.6,11,1.61056e+09,1
1233,439.226,17929,11,1.61056e+09,1
1236,439.836,17732.6,11,1.61056e+09,1
1239,440.445,17788,11,1.61056e+09,1
1242,441.055,17611.2,11,1.61056e+09,1
1245,441.664,18079,11,1.61056e+09,1
1248,442.274,17948.7,11,1.61056e+09,1
1251,442.883,17768.3,11,1.61056e+09,1
1254,443.492,17823.7,11,1.61056e+09,1
1257,444.101,17455.9,11,1.61056e+09,1
1260,444.709,17341.6,11,1.61056e+09,1
1263,445.318,17513,11,1.61056e+09,1
1266,445.927,17072,11,1.61056e+09,1
1269,446.535,17721.9,11,1.61056e+09,1
1272,447.143,17698.7,11,1.61056e+09,1
1275,447.751,17472,11,1.61056e+09,1
1278,448.359,17363,11,1.61056e+09,1
1281,448.967,19410.9,11,1.61056e+09,1
1284,449.575,20019.7,11,1.61056e+09,1
1287,450.183,19535.9,11,1.61056e+09,1
1290,450.79,19132.4,11,1.61056e+09,1
1293,451.398,19596.6,11,1.61056e+09,1
1296,452.005,19485.9,11,1.61056e+09,1
1299,452.612,18668.2,11,1.61056e+09,1
1302,453.219,18211.1,11,1.61056e+09,1
1305,453.826,18543.2,11,1.61056e+09,1
1308,454.433,18234.3,11,1.61056e+09,1
1311,455.04,18348.6,11,1.61056e+09,1
1314,455.646,18453.9,11,1.61056e+09,1
1317,456.253,18873.5,11,1.61056e+09,1
1320,456.859,19132.4,11,1.61056e+09,1
1323,457.465,19323.4,11,1.61056e+09,1
1326,458.072,20080.4,11,1.61056e+09,1
1329,458.677,19735.8,11,1.61056e+09,1
1332,459.283,19909,11,1.61056e+09,1
1335,459.889,19768,11,1.61056e+09,1
1338,460.495,19939.4,11,1.61056e+09,1
1341,461.1,20823.2,11,1.61056e+09,1
1344,461.705,21631.9,11,1.61056e+09,1
1347,462.311,22214,11,1.61056e+09,1
1350,462.916,22206.8,11,1.61056e+09,1
1353,463.521,22435.4,11,1.61056e+09,1
1356,464.125,22330,11,1.61056e+09,1
1359,464.73,22251.5,11,1.61056e+09,1
1362,465.335,21910.5,11,1.61056e+09,1
1365,465.939,23706.6,11,1.61056e+09,1
1368,466.544,24970.6,11,1.61056e+09,1
1371,467.148,27038.1,11,1.61056e+09,1
1374,467.752,26893.5,11,1.61056e+09,1
1377,468.356,26584.6,11,1.61056e+09,1
1380,468.96,26156.2,11,1.61056e+09,1
1383,469.563,25258.1,11,1.61056e+09,1
1386,470.167,24970.6,11,1.61056e+09,1
1389,470.77,24710,11,1.61056e+09,1
1392,471.374,23701.2,11,1.61056e+09,1
1395,471.977,24699.3,11,1.61056e+09,1
1398,472.58,27339.9,11,1.61056e+09,1
1401,473.183,27234.5,11,1.61056e+09,1
1404,473.786,25661.6,11,1.61056e+09,1
1407,474.389,25124.2,11,1.61056e+09,1
1410,474.991,24422.5,11,1.61056e+09,1
1413,475.594,24297.5,11,1.61056e+09,1
1416,476.196,24365.4,11,1.61056e+09,1
1419,476.798,23913.7,11,1.61056e+09,1
1422,477.4,24190.4,11,1.61056e+09,1
1425,478.002,24488.6,11,1.61056e+09,1
1428,478.604,24727.8,11,1.61056e+09,1
1431,479.206,25449.1,11,1.61056e+09,1
1434,479.807,27550.6,11,1.61056e+09,1
1437,480.409,28459.3,11,1.61056e+09,1
1440,481.01,29164.6,11,1.61056e+09,1
1443,481.612,29221.7,11,1.61056e+09,1
1446,482.213,29885.9,11,1.61056e+09,1
1449,482.814,29623.4,11,1.61056e+09,1
1452,483.414,30118,11,1.61056e+09,1
1455,484.015,29993,11,1.61056e+09,1
1458,484.616,29291.3,11,1.61056e+09,1
1461,485.216,29000.3,11,1.61056e+09,1
1464,485.816,28959.2,11,1.61056e+09,1
1467,486.417,28884.2,11,1.61056e+09,1
1470,487.017,28823.5,11,1.61056e+09,1
1473,487.617,28727.1,11,1.61056e+09,1
1476,488.217,29166.3,11,1.61056e+09,1
1479,488.816,29707.3,11,1.61056e+09,1
1482,489.416,29403.8,11,1.61056e+09,1
1485,490.015,29835.9,11,1.61056e+09,1
1488,490.615,30846.4,11,1.61056e+09,1
1491,491.214,32487.2,11,1.61056e+09,1
1494,491.813,33046,11,1.61056e+09,1
1497,492.412,33296,11,1.61056e+09,1
1500,493.011,32642.5,11,1.61056e+09,1
1503,493.609,31964.1,11,1.61056e+09,1
1506,494.208,31091,11,1.61056e+09,1
1509,494.806,30642.9,11,1.61056e+09,1
1512,495.405,30157.2,11,1.61056e+09,1
1515,496.003,30000.1,11,1.61056e+09,1
1518,496.601,29932.3,11,1.61056e+09,1
1521,497.199,29903.7,11,1.61056e+09,1
1524,497.796,30037.6,11,1.61056e+09,1
1527,498.394,29464.5,11,1.61056e+09,1
1530,498.992,29377,11,1.61056e+09,1
1533,499.589,29385.9,11,1.61056e+09,1
1536,500.186,29103.9,11,1.61056e+09,1
1539,500.784,29159.2,11,1.61056e+09,1
1542,501.381,29587.7,11,1.61056e+09,1
1545,501.977,29660.9,11,1.61056e+09,1
1548,502.574,29416.3,11,1.61056e+09,1
1551,503.171,29618,11,1.61056e+09,1
1554,503.767,29659.1,11,1.61056e+09,1
1557,504.364,29778.7,11,1.61056e+09,1
1560,504.96,29678.8,11,1.61056e+09,1
1563,505.556,29546.6,11,1.61056e+09,1
1566,506.152,29371.7,11,1.61056e+09,1
1569,506.748,29587.7,11,1.61056e+09,1
1572,507.344,29664.5,11,1.61056e+09,1
1575,507.939,29175.3,11,1.61056e+09,1
1578,508.535,29889.4,11,1.61056e+09,1
1581,509.13,30132.2,11,1.61056e+09,1
1584,509.725,29905.5,11,1.61056e+09,1
1587,510.321,29801.9,11,1.61056e+09,1
1590,510.916,29878.7,11,1.61056e+09,1
1593,511.51,30200.1,11,1.61056e+09,1
1596,512.105,30030.5,11,1.61056e+09,1
1599,512.7,30526.8,11,1.61056e+09,1
1602,513.294,30114.4,11,1.61056e+09,1
1605,513.888,30237.6,11,1.61056e+09,1
1608,514.483,30369.7,11,1.61056e+09,1
1611,515.077,30273.3,11,1.61056e+09,1
1614,515.671,30817.8,11,1.61056e+09,1
1617,516.265,30608.9,11,1.61056e+09,1
1620,516.858,30637.5,11,1.61056e+09,1
1623,517.452,30384,11,1.61056e+09,1
1626,518.045,30517.9,11,1.61056e+09,1
1629,518.638,30467.9,11,1.61056e+09,1
1632,519.232,30541.1,11,1.61056e+09,1
1635,519.825,30710.7,11,1.61056e+09,1
1638,520.418,30860.7,11,1.61056e+09,1
1641,521.01,30332.2,11,1.61056e+09,1
1644,521.603,31000,11,1.61056e+09,1
1647,522.196,30612.5,11,1.61056e+09,1
1650,522.788,30485.8,11,1.61056e+09,1
1653,523.38,30641.1,11,1.61056e+09,1
1656,523.972,30301.9,11,1.61056e+09,1
1659,524.564,30569.7,11,1.61056e+09,1
1662,525.156,30423.3,11,1.61056e+09,1
1665,525.748,30412.6,11,1.61056e+09,1
1668,526.339,30276.9,11,1.61056e+09,1
1671,526.931,30625,11,1.61056e+09,1
1674,527.522,30307.2,11,1.61056e+09,1
1677,528.114,30032.3,11,1.61056e+09,1
1680,528.705,30250.1,11,1.61056e+09,1
1683,529.296,30257.2,11,1.61056e+09,1
1686,529.886,29846.6,11,1.61056e+09,1
1689,530.477,29707.3,11,1.61056e+09,1
1692,531.068,30157.2,11,1.61056e+09,1
1695,531.658,29691.3,11,1.61056e+09,1
1698,532.248,29794.8,11,1.61056e+09,1
1701,532.839,29807.3,11,1.61056e+09,1
1704,533.429,29550.2,11,1.61056e+09,1
1707,534.018,29878.7,11,1.61056e+09,1
1710,534.608,29677,11,1.61056e+09,1
1713,535.198,29668,11,1.61056e+09,1
1716,535.787,29721.6,11,1.61056e+09,1
1719,536.377,29066.4,11,1.61056e+09,1
1722,536.966,29557.3,11,1.61056e+09,1
1725,537.555,29064.6,11,1.61056e+09,1
1728,538.144,29173.5,11,1.61056e+09,1
1731,538.733,29059.2,11,1.61056e+09,1
1734,539.322,28998.5,11,1.61056e+09,1
1737,539.91,28782.5,11,1.61056e+09,1
1740,540.499,28977.1,11,1.61056e+09,1
1743,541.087,29303.8,11,1.61056e+09,1
1746,541.675,29209.2,11,1.61056e+09,1
1749,542.263,29127.1,11,1.61056e+09,1
1752,542.851,28823.5,11,1.61056e+09,1
1755,543.439,28820,11,1.61056e+09,1
1758,544.027,28791.4,11,1.61056e+09,1
1761,544.614,28721.8,11,1.61056e+09,1
1764,545.202,29712.7,11,1.61056e+09,1
1767,545.789,29705.5,11,1.61056e+09,1
1770,546.376,29048.5,11,1.61056e+09,1
1773,546.963,28921.7,11,1.61056e+09,1
1776,547.55,28732.5,11,1.61056e+09,1
1779,548.137,28371.8,11,1.61056e+09,1
1782,548.723,28150.4,11,1.61056e+09,1
1785,549.31,28102.2,11,1.61056e+09,1
1788,549.896,27961.2,11,1.61056e+09,1
1791,550.482,27736.2,11,1.61056e+09,1
1794,551.068,27952.3,11,1.61056e+09,1
1797,551.654,27916.6,11,1.61056e+09,1
1800,552.24,27561.3,11,1.61056e+09,1
1803,552.826,27929.1,11,1.61056e+09,1
1806,553.411,27882.6,11,1.61056e+09,1
1809,553.997,27688,11,1.61056e+09,1
1812,554.582,27598.8,11,1.61056e+09,1
1815,555.167,27768.4,11,1.61056e+09,1
1818,555.752,27643.4,11,1.61056e+09,1
1821,556.337,27416.6,11,1.61056e+09,1
1824,556.922,27191.7,11,1.61056e+09,1
1827,557.507,27336.3,11,1.61056e+09,1
1830,558.091,27497,11,1.61056e+09,1
1833,558.675,27304.2,11,1.61056e+09,1
1836,559.26,27232.8,11,1.61056e+09,1
1839,559.844,26811.4,11,1.61056e+09,1
1842,560.428,26641.8,11,1.61056e+09,1
1845,561.011,27257.7,11,1.61056e+09,1
1848,561.595,26906,11,1.61056e+09,1
1851,562.179,26847.1,11,1.61056e+09,1
1854,562.762,26882.8,11,1.61056e+09,1
1857,563.345,26547.2,11,1.61056e+09,1
1860,563.928,26284.7,11,1.61056e+09,1
1863,564.511,26420.4,11,1.61056e+09,1
1866,565.094,26277.6,11,1.61056e+09,1
1869,565.677,26234.7,11,1.61056e+09,1
1872,566.26,26179.4,11,1.61056e+09,1
1875,566.842,26193.6,11,1.61056e+09,1
1878,567.425,26259.7,11,1.61056e+09,1
1881,568.007,26463.2,11,1.61056e+09,1
1884,568.589,26388.3,11,1.61056e+09,1
1887,569.171,26338.3,11,1.61056e+09,1
1890,569.753,25866.9,11,1.61056e+09,1
1893,570.334,26127.6,11,1.61056e+09,1
1896,570.916,25681.2,11,1.61056e+09,1
1899,571.497,26018.7,11,1.61056e+09,1
1902,572.078,25620.5,11,1.61056e+09,1
1905,572.659,25409.9,11,1.61056e+09,1
1908,573.24,25593.8,11,1.61056e+09,1
1911,573.821,25568.8,11,1.61056e+09,1
1914,574.402,25199.2,11,1.61056e+09,1
1917,574.983,25406.3,11,1.61056e+09,1
1920,575.563,25147.4,11,1.61056e+09,1
1923,576.143,25372.4,11,1.61056e+09,1
1926,576.724,25279.5,11,1.61056e+09,1
1929,577.304,25167,11,1.61056e+09,1
1932,577.884,25172.4,11,1.61056e+09,1
1935,578.463,25002.8,11,1.61056e+09,1
1938,579.043,24961.7,11,1.61056e+09,1
1941,579.622,24731.4,11,1.61056e+09,1
1944,580.202,24520.7,11,1.61056e+09,1
1947,580.781,24670.7,11,1.61056e+09,1
1950,581.36,24733.2,11,1.61056e+09,1
1953,581.939,24806.4,11,1.61056e+09,1
1956,582.518,24492.2,11,1.61056e+09,1
1959,583.097,24835,11,1.61056e+09,1
1962,583.675,24535,11,1.61056e+09,1
1965,584.254,24579.6,11,1.61056e+09,1
1968,584.832,24361.8,11,1.61056e+09,1
1971,585.41,24236.8,11,1.61056e+09,1
1974,585.988,24074.4,11,1.61056e+09,1
1977,586.566,23953,11,1.61056e+09,1
1980,587.144,24031.5,11,1.61056e+09,1
1983,587.721,24113.7,11,1.61056e+09,1
1986,588.299,24010.1,11,1.61056e+09,1
1989,588.876,24085.1,11,1.61056e+09,1
1992,589.453,23622.7,11,1.61056e+09,1
1995,590.03,23640.5,11,1.61056e+09,1
1998,590.607,23365.6,11,1.61056e+09,1
2001,591.184,23295.9,11,1.61056e+09,1
2004,591.76,23535.2,11,1.61056e+09,1
2007,592.337,23221,11,1.61056e+09,1
2010,592.913,23158.5,11,1.61056e+09,1
2013,593.49,22940.6,11,1.61056e+09,1
2016,594.066,22847.8,11,1.61056e+09,1
2019,594.642,22487.1,11,1.61056e+09,1
2022,595.217,22780,11,1.61056e+09,1
2025,595.793,22594.3,11,1.61056e+09,1
2028,596.369,22346.1,11,1.61056e+09,1
2031,596.944,22390.7,11,1.61056e+09,1
2034,597.519,22092.6,11,1.61056e+09,1
2037,598.094,21915.8,11,1.61056e+09,1
2040,598.669,22005.1,11,1.61056e+09,1
2043,599.244,22021.2,11,1.61056e+09,1
2046,599.819,21894.4,11,1.61056e+09,1
2049,600.394,21849.8,11,1.61056e+09,1
2052,600.968,22006.9,11,1.61056e+09,1
2055,601.542,21524.8,11,1.61056e+09,1
2058,602.116,21558.7,11,1.61056e+09,1
2061,602.69,21724.8,11,1.61056e+09,1
2064,603.264,21501.6,11,1.61056e+09,1
2067,603.838,21348.1,11,1.61056e+09,1
2070,604.412,21482,11,1.61056e+09,1
2073,604.985,21394.5,11,1.61056e+09,1
2076,605.558,20873.1,11,1.61056e+09,1
2079,606.132,21135.6,11,1.61056e+09,1
2082,606.705,21033.8,11,1.61056e+09,1
2085,607.278,21246.3,11,1.61056e+09,1
2088,607.85,20996.3,11,1.61056e+09,1
2091,608.423,21085.6,11,1.61056e+09,1
2094,608.996,20637.5,11,1.61056e+09,1
2097,609.568,20733.9,11,1.61056e+09,1
2100,610.14,20496.4,11,1.61056e+09,1
2103,610.712,20610.7,11,1.61056e+09,1
2106,611.284,20598.2,11,1.61056e+09,1
2109,611.856,20535.7,11,1.61056e+09,1
2112,612.428,20430.4,11,1.61056e+09,1
2115,612.999,20507.1,11,1.61056e+09,1
2118,613.571,20455.4,11,1.61056e+09,1
2121,614.142,20751.7,11,1.61056e+09,1
2124,614.713,20251.8,11,1.61056e+09,1
2127,615.284,20341.1,11,1.61056e+09,1
2130,615.855,20553.6,11,1.61056e+09,1
2133,616.425,20184,11,1.61056e+09,1
2136,616.996,20028.7,11,1.61056e+09,1
2139,617.566,19998.3,11,1.61056e+09,1
2142,618.137,19962.6,11,1.61056e+09,1
2145,618.707,19821.5,11,1.61056e+09,1
2148,619.277,19780.5,11,1.61056e+09,1
2151,619.847,19646.6,11,1.61056e+09,1
2154,620.416,19987.6,11,1.61056e+09,1
2157,620.986,19651.9,11,1.61056e+09,1
2160,621.555,19234.1,11,1.61056e+09,1
2163,622.125,19175.2,11,1.61056e+09,1
2166,622.694,19325.2,11,1.61056e+09,1
2169,623.263,19078.8,11,1.61056e+09,1
2172,623.832,18989.5,11,1.61056e+09,1
2175,624.4,19102,11,1.61056e+09,1
2178,624.969,19089.5,11,1.61056e+09,1
2181,625.537,19086,11,1.61056e+09,1
2184,626.106,18978.8,11,1.61056e+09,1
2187,626.674,18809.2,11,1.61056e+09,1
2190,627.242,18894.9,11,1.61056e+09,1
2193,627.81,18953.8,11,1.61056e+09,1
2196,628.378,18877.1,11,1.61056e+09,1
2199,628.945,18994.9,11,1.61056e+09,1
2202,629.513,18900.3,11,1.61056e+09,1
2205,630.08,18693.2,11,1.61056e+09,1
2208,630.647,19202,11,1.61056e+09,1
2211,631.214,18882.4,11,1.61056e+09,1
2214,631.781,18827.1,11,1.61056e+09,1
2217,632.348,18796.7,11,1.61056e+09,1
2220,632.914,18878.9,11,1.61056e+09,1
2223,633.481,18737.8,11,1.61056e+09,1
2226,634.047,18705.7,11,1.61056e+09,1
2229,634.613,18570,11,1.61056e+09,1
2232,635.179,18293.2,11,1.61056e+09,1
2235,635.745,18323.6,11,1.61056e+09,1
2238,636.311,18628.9,11,1.61056e+09,1
2241,636.877,18184.3,11,1.61056e+09,1
2244,637.442,18005.8,11,1.61056e+09,1
2247,638.008,18291.5,11,1.61056e+09,1
2250,638.573,18059.4,11,1.61056e+09,1
2253,639.138,17723.7,11,1.61056e+09,1
2256,639.703,17875.5,11,1.61056e+09,1
2259,640.268,17950.4,11,1.61056e+09,1
2262,640.832,17748.7,11,1.61056e+09,1
2265,641.397,17634.4,11,1.61056e+09,1
2268,641.961,17525.5,11,1.61056e+09,1
2271,642.525,17650.5,11,1.61056e+09,1
2274,643.089,17489.8,11,1.61056e+09,1
2277,643.653,17459.5,11,1.61056e+09,1
2280,644.217,17625.5,11,1.61056e+09,1
2283,644.781,17600.5,11,1.61056e+09,1
2286,645.344,17652.3,11,1.61056e+09,1
2289,645.908,17461.2,11,1.61056e+09,1
2292,646.471,17297,11,1.61056e+09,1
2295,647.034,17784.4,11,1.61056e+09,1
2298,647.597,17555.9,11,1.61056e+09,1
2301,648.16,17420.2,11,1.61056e+09,1
2304,648.722,17621.9,11,1.61056e+09,1
2307,649.285,17414.8,11,1.61056e+09,1
2310,649.847,17305.9,11,1.61056e+09,1
2313,650.409,17223.8,11,1.61056e+09,1
2316,650.971,17214.9,11,1.61056e+09,1
2319,651.533,16704.2,11,1.61056e+09,1
2322,652.095,16527.5,11,1.61056e+09,1
2325,652.657,16322.2,11,1.61056e+09,1
2328,653.218,16568.5,11,1.61056e+09,1
2331,653.779,16529.3,11,1.61056e+09,1
2334,654.341,16257.9,11,1.61056e+09,1
2337,654.902,16172.2,11,1.61056e+09,1
2340,655.463,16038.3,11,1.61056e+09,1
2343,656.023,16077.6,11,1.61056e+09,1
2346,656.584,16084.7,11,1.61056e+09,1
2349,657.145,15877.6,11,1.61056e+09,1
2352,657.705,15765.1,11,1.61056e+09,1
2355,658.265,15806.2,11,1.61056e+09,1
2358,658.825,15891.9,11,1.61056e+09,1
2361,659.385,15729.4,11,1.61056e+09,1
2364,659.945,15590.1,11,1.61056e+09,1
2367,660.504,15570.5,11,1.61056e+09,1
2370,661.064,15559.8,11,1.61056e+09,1
2373,661.623,15625.8,11,1.61056e+09,1
2376,662.182,15525.9,11,1.61056e+09,1
2379,662.742,15443.7,11,1.61056e+09,1
2382,663.3,15322.3,11,1.61056e+09,1
2385,663.859,15304.5,11,1.61056e+09,1
2388,664.418,15490.2,11,1.61056e+09,1
2391,664.976,15406.2,11,1.61056e+09,1
2394,665.535,15367,11,1.61056e+09,1
2397,666.093,15499.1,11,1.61056e+09,1
2400,666.651,15386.6,11,1.61056e+09,1
2403,667.209,15300.9,11,1.61056e+09,1
2406,667.766,15134.9,11,1.61056e+09,1
2409,668.324,15100.9,11,1.61056e+09,1
2412,668.882,14942,11,1.61056e+09,1
2415,669.439,14858.1,11,1.61056e+09,1
2418,669.996,14852.8,11,1.61056e+09,1
2421,670.553,14824.2,11,1.61056e+09,1
2424,671.11,14924.2,11,1.61056e+09,1
2427,671.667,14697.4,11,1.61056e+09,1
2430,672.223,14765.3,11,1.61056e+09,1
2433,672.78,14572.5,11,1.61056e+09,1
2436,673.336,14754.6,11,1.61056e+09,1
2439,673.892,14629.6,11,1.61056e+09,1
2442,674.448,14679.6,11,1.61056e+09,1
2445,675.004,14720.6,11,1.61056e+09,1
2448,675.56,14454.6,11,1.61056e+09,1
2451,676.115,14504.6,11,1.61056e+09,1
2454,676.671,14447.5,11,1.61056e+09,1
2457,677.226,14374.3,11,1.61056e+09,1
2460,677.781,14151.1,11,1.61056e+09,1
2463,678.336,14217.2,11,1.61056e+09,1
2466,678.891,14070.8,11,1.61056e+09,1
2469,679.446,13872.6,11,1.61056e+09,1
2472,680,13940.4,11,1.61056e+09,1
2475,680.554,14024.3,11,1.61056e+09,1
2478,681.109,14011.8,11,1.61056e+09,1
2481,681.663,14547.5,11,1.61056e+09,1
2484,682.217,14729.6,11,1.61056e+09,1
2487,682.771,14867.1,11,1.61056e+09,1
2490,683.324,14656.4,11,1.61056e+09,1
2493,683.878,14495.7,11,1.61056e+09,1
2496,684.431,14536.8,11,1.61056e+09,1
2499,684.984,14395.7,11,1.61056e+09,1
2502,685.537,14211.8,11,1.61056e+09,1
2505,686.09,14108.3,11,1.61056e+09,1
2508,686.643,13815.4,11,1.61056e+09,1
2511,687.196,14042.2,11,1.61056e+09,1
2514,687.748,13827.9,11,1.61056e+09,1
2517,688.301,14002.9,11,1.61056e+09,1
2520,688.853,13570.8,11,1.61056e+09,1
2523,689.405,13524.4,11,1.61056e+09,1
2526,689.957,13306.6,11,1.61056e+09,1
2529,690.508,13237,11,1.61056e+09,1
2532,691.06,12974.5,11,1.61056e+09,1
2535,691.612,12865.6,11,1.61056e+09,1
2538,692.163,12597.8,11,1.61056e+09,1
2541,692.714,12405,11,1.61056e+09,1
2544,693.265,12285.4,11,1.61056e+09,1
2547,693.816,12224.7,11,1.61056e+09,1
2550,694.367,12028.3,11,1.61056e+09,1
2553,694.917,11942.6,11,1.61056e+09,1
2556,695.468,11812.2,11,1.61056e+09,1
2559,696.018,11760.4,11,1.61056e+09,1
2562,696.568,11746.2,11,1.61056e+09,1
2565,697.118,11539.1,11,1.61056e+09,1
2568,697.668,11423,11,1.61056e+09,1
2571,698.218,11589.1,11,1.61056e+09,1
2574,698.767,11339.1,11,1.61056e+09,1
2577,699.316,11535.5,11,1.61056e+09,1
2580,699.866,11026.6,11,1.61056e+09,1
2583,700.415,11314.1,11,1.61056e+09,1
2586,700.964,11058.8,11,1.61056e+09,1
2589,701.513,10705.3,11,1.61056e+09,1
2592,702.061,10955.2,11,1.61056e+09,1
2595,702.61,10892.7,11,1.61056e+09,1
2598,703.158,10760.6,11,1.61056e+09,1
2601,703.706,10730.3,11,1.61056e+09,1
2604,704.254,10596.4,11,1.61056e+09,1
2607,704.802,10599.9,11,1.61056e+09,1
2610,705.35,10539.2,11,1.61056e+09,1
2613,705.897,10473.2,11,1.61056e+09,1
2616,706.445,10489.2,11,1.61056e+09,1
2619,706.992,10566,11,1.61056e+09,1
2622,707.539,10574.9,11,1.61056e+09,1
2625,708.086,10674.9,11,1.61056e+09,1
2628,708.633,10742.8,11,1.61056e+09,1
2631,709.18,10674.9,11,1.61056e+09,1
2634,709.727,10814.2,11,1.61056e+09,1
2637,710.273,10921.3,11,1.61056e+09,1
2640,710.819,11014.2,11,1.61056e+09,1
2643,711.365,11103.4,11,1.61056e+09,1
2646,711.911,11007,11,1.61056e+09,1
2649,712.457,11132,11,1.61056e+09,1
2652,713.003,11065.9,11,1.61056e+09,1
2655,713.548,10739.2,11,1.61056e+09,1
2658,714.094,10696.3,11,1.61056e+09,1
2661,714.639,10553.5,11,1.61056e+09,1
2664,715.184,10330.3,11,1.61056e+09,1
2667,715.729,10191.1,11,1.61056e+09,1
2670,716.274,10103.6,11,1.61056e+09,1
2673,716.818,10096.5,11,1.61056e+09,1
2676,717.363,9775.08,11,1.61056e+09,1
2679,717.907,9717.95,11,1.61056e+09,1
2682,718.451,9689.38,11,1.61056e+09,1
2685,718.995,9619.75,11,1.61056e+09,1
2688,719.539,9369.79,11,1.61056e+09,1
2691,720.083,9414.43,11,1.61056e+09,1
2694,720.626,9139.48,11,1.61056e+09,1
2697,721.17,9094.84,11,1.61056e+09,1
2700,721.713,9012.71,11,1.61056e+09,1
2703,722.256,8973.44,11,1.61056e+09,1
2706,722.799,8952.01,11,1.61056e+09,1
2709,723.342,8816.32,11,1.61056e+09,1
2712,723.884,8809.18,11,1.61056e+09,1
2715,724.427,8919.87,11,1.61056e+09,1
2718,724.969,8825.25,11,1.61056e+09,1
2721,725.511,8896.66,11,1.61056e+09,1
2724,726.053,9021.64,11,1.61056e+09,1
2727,726.595,9021.64,11,1.61056e+09,1
2730,727.137,8935.94,11,1.61056e+09,1
2733,727.679,9066.28,11,1.61056e+09,1
2736,728.22,8859.17,11,1.61056e+09,1
2739,728.761,8994.86,11,1.61056e+09,1
2742,729.303,9060.92,11,1.61056e+09,1
2745,729.844,8984.15,11,1.61056e+09,1
2748,730.384,9119.84,11,1.61056e+09,1
2751,730.925,9325.16,11,1.61056e+09,1
2754,731.466,9398.36,11,1.61056e+09,1
2757,732.006,9394.79,11,1.61056e+09,1
2760,732.546,9344.8,11,1.61056e+09,1
2763,733.086,9269.81,11,1.61056e+09,1
2766,733.626,8962.72,11,1.61056e+09,1
2769,734.166,8875.24,11,1.61056e+09,1
2772,734.706,8723.48,11,1.61056e+09,1
2775,735.245,8480.66,11,1.61056e+09,1
2778,735.784,8305.69,11,1.61056e+09,1
2781,736.324,8159.29,11,1.61056e+09,1
2784,736.863,8032.53,11,1.61056e+09,1
2787,737.401,8030.74,11,1.61056e+09,1
2790,737.94,7900.41,11,1.61056e+09,1
2793,738.479,7862.91,11,1.61056e+09,1
2796,739.017,7902.19,11,1.61056e+09,1
2799,739.555,8182.5,11,1.61056e+09,1
2802,740.093,8070.02,11,1.61056e+09,1
2805,740.631,7896.84,11,1.61056e+09,1
2808,741.169,7814.71,11,1.61056e+09,1
2811,741.707,7889.7,11,1.61056e+09,1
2814,742.244,7664.73,11,1.61056e+09,1
2817,742.782,7705.8,11,1.61056e+09,1
2820,743.319,7475.48,11,1.61056e+09,1
2823,743.856,7700.44,11,1.61056e+09,1
2826,744.393,7418.35,11,1.61056e+09,1
2829,744.929,7448.7,11,1.61056e+09,1
2832,745.466,7370.14,11,1.61056e+09,1
2835,746.002,7486.19,11,1.61056e+09,1
2838,746.539,7529.04,11,1.61056e+09,1
2841,747.075,7461.2,11,1.61056e+09,1
2844,747.611,7332.65,11,1.61056e+09,1
2847,748.146,7516.55,11,1.61056e+09,1
2850,748.682,7461.2,11,1.61056e+09,1
2853,749.218,7504.05,11,1.61056e+09,1
2856,749.753,7559.4,11,1.61056e+09,1
2859,750.288,7641.52,11,1.61056e+09,1
2862,750.823,7457.63,11,1.61056e+09,1
2865,751.358,7534.4,11,1.61056e+09,1
2868,751.893,7386.21,11,1.61056e+09,1
2871,752.427,7545.11,11,1.61056e+09,1
2874,752.962,7429.06,11,1.61056e+09,1
2877,753.496,7386.21,11,1.61056e+09,1
2880,754.03,7284.44,11,1.61056e+09,1
2883,754.564,7175.53,11,1.61056e+09,1
2886,755.098,7171.96,11,1.61056e+09,1
2889,755.631,7089.84,11,1.61056e+09,1
2892,756.165,7114.83,11,1.61056e+09,1
2895,756.698,7164.82,11,1.61056e+09,1
2898,757.231,7145.18,11,1.61056e+09,1
2901,757.764,7238.02,11,1.61056e+09,1
2904,758.297,7048.77,11,1.61056e+09,1
2907,758.83,7239.81,11,1.61056e+09,1
2910,759.362,7213.03,11,1.61056e+09,1
2913,759.895,7354.07,11,1.61056e+09,1
2916,760.427,7279.09,11,1.61056e+09,1
2919,760.959,7321.94,11,1.61056e+09,1
2922,761.491,7462.98,11,1.61056e+09,1
2925,762.023,7873.63,11,1.61056e+09,1
2928,762.555,8798.47,11,1.61056e+09,1
2931,763.086,10446.4,11,1.61056e+09,1
2934,763.617,10648.1,11,1.61056e+09,1
2937,764.148,10187.5,11,1.61056e+09,1
2940,764.679,9509.06,11,1.61056e+09,1
2943,765.21,9010.93,11,1.61056e+09,1
2946,765.741,8152.15,11,1.61056e+09,1
2949,766.272,7504.05,11,1.61056e+09,1
2952,766.802,7075.55,11,1.61056e+09,1
2955,767.332,6822.02,11,1.61056e+09,1
2958,767.862,6777.39,11,1.61056e+09,1
2961,768.392,6473.87,11,1.61056e+09,1
2964,768.922,6150.71,11,1.61056e+09,1
2967,769.451,6041.8,11,1.61056e+09,1
2970,769.981,5986.46,11,1.61056e+09,1
2973,770.51,5754.35,11,1.61056e+09,1
2976,771.039,5615.09,11,1.61056e+09,1
2979,771.568,5756.14,11,1.61056e+09,1
2982,772.097,5607.95,11,1.61056e+09,1
2985,772.626,5568.67,11,1.61056e+09,1
2988,773.154,5432.98,11,1.61056e+09,1
2991,773.683,5402.63,11,1.61056e+09,1
2994,774.211,5290.15,11,1.61056e+09,1
2997,774.739,5300.86,11,1.61056e+09,1
3000,775.267,5158.03,11,1.61056e+09,1
3003,775.794,5300.86,11,1.61056e+09,1
3006,776.322,5054.48,11,1.61056e+09,1
3009,776.849,5161.6,11,1.61056e+09,1
3012,777.377,5136.6,11,1.61056e+09,1
3015,777.904,5049.12,11,1.61056e+09,1
3018,778.431,4993.77,11,1.61056e+09,1
3021,778.958,4961.63,11,1.61056e+09,1
3024,779.484,4843.8,11,1.61056e+09,1
3027,780.011,4949.14,11,1.61056e+09,1
3030,780.537,4874.15,11,1.61056e+09,1
3033,781.063,4918.79,11,1.61056e+09,1
3036,781.589,4824.16,11,1.61056e+09,1
3039,782.115,4854.51,11,1.61056e+09,1
3042,782.641,4811.66,11,1.61056e+09,1
3045,783.166,4840.23,11,1.61056e+09,1
3048,783.691,4775.95,11,1.61056e+09,1
3051,784.217,4890.22,11,1.61056e+09,1
3054,784.742,4686.68,11,1.61056e+09,1
3057,785.267,4775.95,11,1.61056e+09,1
3060,785.791,4586.7,11,1.61056e+09,1
3063,786.316,4783.09,11,1.61056e+09,1
3066,786.84,4622.41,11,1.61056e+09,1
3069,787.365,4852.73,11,1.61056e+09,1
3072,787.889,4845.58,11,1.61056e+09,1
3075,788.413,5063.4,11,1.61056e+09,1
3078,788.936,4877.72,11,1.61056e+09,1
3081,789.46,5108.04,11,1.61056e+09,1
3084,789.984,5033.05,11,1.61056e+09,1
3087,790.507,4840.23,11,1.61056e+09,1
3090,791.03,4825.94,11,1.61056e+09,1
3093,791.553,4761.67,11,1.61056e+09,1
3096,792.076,4656.33,11,1.61056e+09,1
3099,792.598,4534.92,11,1.61056e+09,1
3102,793.121,4533.14,11,1.61056e+09,1
3105,793.643,4584.91,11,1.61056e+09,1
3108,794.166,4508.14,11,1.61056e+09,1
3111,794.688,4529.57,11,1.61056e+09,1
3114,795.209,4463.51,11,1.61056e+09,1
3117,795.731,4642.05,11,1.61056e+09,1
3120,796.253,4538.49,11,1.61056e+09,1
3123,796.774,4588.49,11,1.61056e+09,1
3126,797.295,4606.34,11,1.61056e+09,1
3129,797.816,4563.49,11,1.61056e+09,1
3132,798.337,4492.07,11,1.61056e+09,1
3135,798.858,4493.86,11,1.61056e+09,1
3138,799.379,4409.95,11,1.61056e+09,1
3141,799.899,4408.16,11,1.61056e+09,1
3144,800.42,4227.83,11,1.61056e+09,1
3147,800.94,4411.73,11,1.61056e+09,1
3150,801.46,4238.55,11,1.61056e+09,1
3153,801.979,4222.48,11,1.61056e+09,1
3156,802.499,4095.71,11,1.61056e+09,1
3159,803.019,4092.14,11,1.61056e+09,1
3162,803.538,4061.79,11,1.61056e+09,1
3165,804.057,4156.42,11,1.61056e+09,1
3168,804.576,4063.58,11,1.61056e+09,1
3171,805.095,3976.09,11,1.61056e+09,1
3174,805.614,3967.17,11,1.61056e+09,1
3177,806.132,3990.38,11,1.61056e+09,1
3180,806.65,3906.46,11,1.61056e+09,1
3183,807.169,4106.43,11,1.61056e+09,1
3186,807.687,3968.95,11,1.61056e+09,1
3189,808.205,4027.87,11,1.61056e+09,1
3192,808.722,3913.6,11,1.61056e+09,1
3195,809.24,3977.88,11,1.61056e+09,1
3198,809.757,3952.88,11,1.61056e+09,1
3201,810.275,3922.53,11,1.61056e+09,1
3204,810.792,3976.09,11,1.61056e+09,1
3207,811.309,3902.89,11,1.61056e+09,1
3210,811.825,3931.46,11,1.61056e+09,1
3213,812.342,3877.9,11,1.61056e+09,1
3216,812.858,3920.74,11,1.61056e+09,1
3219,813.375,3920.74,11,1.61056e+09,1
3222,813.891,3902.89,11,1.61056e+09,1
3225,814.407,3836.83,11,1.61056e+09,1
3228,814.923,3870.75,11,1.61056e+09,1
3231,815.438,3872.54,11,1.61056e+09,1
3234,815.954,3926.1,11,1.61056e+09,1
3237,816.469,3985.02,11,1.61056e+09,1
3240,816.984,3993.95,11,1.61056e+09,1
3243,817.499,4002.87,11,1.61056e+09,1
3246,818.014,4002.87,11,1.61056e+09,1
3249,818.529,4265.33,11,1.61056e+09,1
3252,819.043,4342.1,11,1.61056e+09,1
3255,819.557,4640.26,11,1.61056e+09,1
3258,820.072,4811.66,11,1.61056e+09,1
3261,820.586,5525.82,11,1.61056e+09,1
3264,821.099,6502.44,11,1.61056e+09,1
3267,821.613,8118.23,11,1.61056e+09,1
3270,822.127,9776.87,11,1.61056e+09,1
3273,822.64,11651.5,11,1.61056e+09,1
3276,823.153,12415.7,11,1.61056e+09,1
3279,823.666,12374.6,11,1.61056e+09,1
3282,824.179,11819.4,11,1.61056e+09,1
3285,824.692,10880.2,11,1.61056e+09,1
3288,825.205,9787.58,11,1.61056e+09,1
3291,825.717,8739.55,11,1.61056e+09,1
3294,826.229,7996.82,11,1.61056e+09,1
3297,826.741,7923.62,11,1.61056e+09,1
3300,827.253,7968.25,11,1.61056e+09,1
3303,827.765,7916.48,11,1.61056e+09,1
3306,828.276,7646.88,11,1.61056e+09,1
3309,828.788,7248.74,11,1.61056e+09,1
3312,829.299,6514.94,11,1.61056e+09,1
3315,829.81,5984.67,11,1.61056e+09,1
3318,830.321,5215.16,11,1.61056e+09,1
3321,830.832,4756.31,11,1.61056e+09,1
3324,831.343,4351.03,11,1.61056e+09,1
3327,831.853,4233.19,11,1.61056e+09,1
3330,832.363,4293.89,11,1.61056e+09,1
3333,832.873,4401.02,11,1.61056e+09,1
3336,833.383,4567.06,11,1.61056e+09,1
3339,833.893,5004.48,11,1.61056e+09,1
3342,834.403,5097.33,11,1.61056e+09,1
3345,834.912,5168.74,11,1.61056e+09,1
3348,835.421,5090.18,11,1.61056e+09,1
3351,835.931,4854.51,11,1.61056e+09,1
3354,836.44,4668.83,11,1.61056e+09,1
3357,836.948,4204.62,11,1.61056e+09,1
3360,837.457,3920.74,11,1.61056e+09,1
3363,837.966,3742.2,11,1.61056e+09,1
3366,838.474,3644.01,11,1.61056e+09,1
3369,838.982,3549.38,11,1.61056e+09,1
3372,839.49,3527.96,11,1.61056e+09,1
3375,839.998,3638.65,11,1.61056e+09,1
3378,840.505,3642.22,11,1.61056e+09,1
3381,841.013,3688.64,11,1.61056e+09,1
3384,841.52,3699.35,11,1.61056e+09,1
3387,842.027,3685.07,11,1.61056e+09,1
3390,842.534,3535.1,11,1.61056e+09,1
3393,843.041,3526.17,11,1.61056e+09,1
3396,843.548,3411.91,11,1.61056e+09,1
3399,844.054,3317.28,11,1.61056e+09,1
3402,844.561,3308.35,11,1.61056e+09,1
3405,845.067,3294.07,11,1.61056e+09,1
3408,845.573,3211.94,11,1.61056e+09,1
3411,846.079,3215.51,11,1.61056e+09,1
3414,846.585,3192.3,11,1.61056e+09,1
3417,847.09,3299.42,11,1.61056e+09,1
3420,847.595,3228.01,11,1.61056e+09,1
3423,848.101,3235.15,11,1.61056e+09,1
3426,848.606,3240.51,11,1.61056e+09,1
3429,849.11,3199.44,11,1.61056e+09,1
3432,849.615,3167.3,11,1.61056e+09,1
3435,850.12,3172.66,11,1.61056e+09,1
3438,850.624,3215.51,11,1.61056e+09,1
3441,851.128,3176.23,11,1.61056e+09,1
3444,851.632,3160.16,11,1.61056e+09,1
3447,852.136,3220.87,11,1.61056e+09,1
3450,852.64,3170.88,11,1.61056e+09,1
3453,853.143,3195.87,11,1.61056e+09,1
3456,853.647,3160.16,11,1.61056e+09,1
3459,854.15,3211.94,11,1.61056e+09,1
3462,854.653,3185.16,11,1.61056e+09,1
3465,855.156,3203.01,11,1.61056e+09,1
3468,855.659,3119.1,11,1.61056e+09,1
3471,856.161,3208.37,11,1.61056e+09,1
3474,856.664,3208.37,11,1.61056e+09,1
3477,857.166,3117.31,11,1.61056e+09,1
3480,857.668,3183.37,11,1.61056e+09,1
3483,858.17,3224.44,11,1.61056e+09,1
3486,858.671,3129.81,11,1.61056e+09,1
3489,859.173,3192.3,11,1.61056e+09,1
3492,859.674,3083.39,11,1.61056e+09,1
3495,860.175,3126.24,11,1.61056e+09,1
3498,860.677,3194.09,11,1.61056e+09,1
3501,861.177,3156.59,11,1.61056e+09,1
3504,861.678,3181.59,11,1.61056e+09,1
3507,862.179,3172.66,11,1.61056e+09,1
3510,862.679,3122.67,11,1.61056e+09,1
3513,863.179,3242.29,11,1.61056e+09,1
3516,863.679,3136.95,11,1.61056e+09,1
3519,864.179,3106.6,11,1.61056e+09,1
3522,864.679,3163.73,11,1.61056e+09,1
3525,865.178,3197.66,11,1.61056e+09,1
3528,865.678,3176.23,11,1.61056e+09,1
3531,866.177,3226.22,11,1.61056e+09,1
3534,866.676,3074.46,11,1.61056e+09,1
3537,867.175,3213.73,11,1.61056e+09,1
3540,867.674,3172.66,11,1.61056e+09,1
3543,868.172,3115.53,11,1.61056e+09,1
3546,868.67,3129.81,11,1.61056e+09,1
3549,869.169,3095.89,11,1.61056e+09,1
3552,869.667,3160.16,11,1.61056e+09,1
3555,870.165,3213.73,11,1.61056e+09,1
3558,870.662,3135.17,11,1.61056e+09,1
3561,871.16,3165.52,11,1.61056e+09,1
3564,871.657,3136.95,11,1.61056e+09,1
3567,872.154,3101.24,11,1.61056e+09,1
3570,872.651,3099.46,11,1.61056e+09,1
3573,873.148,3217.3,11,1.61056e+09,1
3576,873.645,3117.31,11,1.61056e+09,1
3579,874.141,3203.01,11,1.61056e+09,1
3582,874.638,3129.81,11,1.61056e+09,1
3585,875.134,3120.88,11,1.61056e+09,1
3588,875.63,3029.83,11,1.61056e+09,1
3591,876.126,3117.31,11,1.61056e+09,1
3594,876.622,3099.46,11,1.61056e+09,1
3597,877.117,3197.66,11,1.61056e+09,1
3600,877.612,3201.23,11,1.61056e+09,1
3603,878.108,3217.3,11,1.61056e+09,1
3606,878.603,3135.17,11,1.61056e+09,1
3609,879.097,3217.3,11,1.61056e+09,1
3612,879.592,3179.8,11,1.61056e+09,1
3615,880.087,3183.37,11,1.61056e+09,1
3618,880.581,3178.02,11,1.61056e+09,1
3621,881.075,3201.23,11,1.61056e+09,1
3624,881.569,3170.88,11,1.61056e+09,1
3627,882.063,3204.8,11,1.61056e+09,1
3630,882.557,3256.57,11,1.61056e+09,1
3633,883.05,3286.93,11,1.61056e+09,1
3636,883.543,3344.06,11,1.61056e+09,1
3639,884.037,3360.13,11,1.61056e+09,1
3642,884.53,3386.91,11,1.61056e+09,1
3645,885.022,3360.13,11,1.61056e+09,1
3647,885.351,3360.13,11,1.61056e+09,1